<Bundle
    xmlns="http://hl7.org/fhir">
    <id value="bundle-mdi-tox-report-message-a-freeman"/>
    <meta>
        <versionId value="23"/>
        <lastUpdated value="2022-08-17T00:10:33.190+00:00"/>
        <source value="#ErFFClvqDYQ3TY71"/>
        <profile value="http://hl7.org/fhir/us/mdi/StructureDefinition/Bundle-message-tox-to-mdi"/>
    </meta>
    <identifier>
        <system value="urn:ietf:rfc:3986"/>
        <value value="urn:uuid:683dde44f7664b03a20b6324f23986d9"/>
    </identifier>
    <type value="message"/>
    <entry>
        <fullUrl value="http://hl7.org/fhir/us/mdi/MessageHeader/messageheader-mdi-tox-result-report-a-freeman"/>
        <resource>
            <MessageHeader>
                <id value="messageheader-mdi-tox-result-report-a-freeman"/>
                <meta>
                    <profile value="http://hl7.org/fhir/us/mdi/StructureDefinition/MessageHeader-toxicology-to-mdi"/>
                </meta>
                <eventCoding>
                    <system value="http://hl7.org/fhir/us/mdi/CodeSystem/CodeSystem-mdi-codes"/>
                    <code value="tox-result-report"/>
                </eventCoding>
                <source>
                    <name value="University of Florida Pathology Labs, Forensic Toxicology Laboratory"/>
                    <software value="MDI Log"/>
                    <version value="1.2.3.4.5"/>
                    <contact>
                        <system value="phone"/>
                        <value value="+1 (555) 123 4567"/>
                    </contact>
                    <endpoint value="http://mdi-log.org/fhir/endpoint/1"/>
                </source>
                <response>
                    <identifier value="5015fe84-8e76-4526-89d8-44b322e8d4fb"/>
                    <code value="ok"/>
                </response>
                <focus>
                    <reference value="DiagnosticReport/diagnosticreport-mdi-toxicology-lab-a-freeman"/>
                </focus>
            </MessageHeader>
        </resource>
    </entry>
    <entry>
        <fullUrl value="http://hl7.org/fhir/us/mdi/DiagnosticReport/diagnosticreport-mdi-toxicology-lab-a-freeman"/>
        <resource>
            <DiagnosticReport>
                <id value="diagnosticreport-mdi-toxicology-lab-a-freeman"/>
                <meta>
                    <profile value="http://hl7.org/fhir/us/mdi/StructureDefinition/DiagnosticReport-toxicology-to-mdi"/>
                </meta>
                <text>
                    <status value="generated"/>
                </text>
                <extension url="http://hl7.org/fhir/us/mdi/StructureDefinition/Extension-tracking-number">
                    <valueIdentifier>
                        <system value="http://florida-investigation-agncy.org/fhir/agency-case-numbers"/>
                        <value value="ME21-111"/>
                    </valueIdentifier>
                </extension>
                <identifier>
                    <type>
                        <coding>
                            <system value="http://hl7.org/fhir/us/mdi/CodeSystem/CodeSystem-mdi-codes"/>
                            <code value="tox-lab-case-number"/>
                        </coding>
                    </type>
                    <system value="http://uf-path-labs.org/fhir/lab-cases"/>
                    <value value="R21-01578"/>
                    <assigner>
                        <reference value="Organization/us-core-organization-tox-lab"/>
                    </assigner>
                </identifier>
                <status value="final"/>
                <category>
                    <coding>
                        <system value="http://terminology.hl7.org/CodeSystem/v2-0074"/>
                        <code value="LAB"/>
                        <display value="Laboratory"/>
                    </coding>
                </category>
                <code>
                    <coding>
                        <system value="http://loinc.org"/>
                        <code value="81273-5"/>
                        <display value="fentaNYL and Norfentanyl panel - Specimen"/>
                    </coding>
                </code>
                <subject>
                    <reference value="Patient/us-core-patient-a-freeman"/>
                    <display value="Alice J. Freeman"/>
                </subject>
                <effectiveDateTime value="2021-12-03T11:00:00Z"/>
                <issued value="2022-01-05T11:00:00Z"/>
                <performer>
                    <reference value="Practitioner/us-core-practitioner-b-goldberger"/>
                </performer>
                <specimen>
                    <reference value="Specimen/specimen-blood-toxicology-a-freeman"/>
                </specimen>
                <specimen>
                    <reference value="Specimen/specimen-urine-toxicology-a-freeman"/>
                </specimen>
                <specimen>
                    <reference value="Specimen/specimen-vitreous-humor-toxicology-a-freeman"/>
                </specimen>
                <specimen>
                    <reference value="Specimen/specimen-bile-toxicology-a-freeman"/>
                </specimen>
                <specimen>
                    <reference value="Specimen/specimen-stomach-contents-toxicology-a-freeman"/>
                </specimen>
                <specimen>
                    <reference value="Specimen/specimen-liver-toxicology-a-freeman"/>
                </specimen>
                <result>
                    <reference value="Observation/us-core-lab-result-etoh-gas-chromatography-blood-a-freeman"/>
                    <display value="ETOH BLOOD: 0.145 g/dL"/>
                </result>
                <result>
                    <reference value="Observation/us-core-lab-result-4-anpp-blood-a-freeman"/>
                    <display value="4-ANPP: POSITIVE"/>
                </result>
                <result>
                    <reference value="Observation/us-core-lab-result-acetylfentanyl-blood-a-freeman"/>
                    <display value="ACETYLFENTANYL: less than 2.5 ng/mL"/>
                </result>
                <result>
                    <reference value="Observation/us-core-lab-result-fentanyl-blood-a-freeman"/>
                    <display value="FENTANYL: 23 ng/mL"/>
                </result>
                <result>
                    <reference value="Observation/us-core-lab-result-etoh-gas-chromatography-urine-a-freeman"/>
                    <display value="ETOH URINE: 0.160 g/dL"/>
                </result>
                <result>
                    <reference value="Observation/us-core-lab-result-4-anpp-urine-a-freeman"/>
                    <display value="4-ANPP: POSITIVE"/>
                </result>
                <result>
                    <reference value="Observation/us-core-lab-result-acetylfentanyl-urine-a-freeman"/>
                    <display value="ACETYLFENTANYL: POSITIVE"/>
                </result>
                <result>
                    <reference value="Observation/us-core-lab-result-fentanyl-urine-a-freeman"/>
                    <display value="FENTANYL: POSITIVE"/>
                </result>
                <result>
                    <reference value="Observation/us-core-lab-result-norfentanyl-urine-a-freeman"/>
                    <display value="NORFENTANYL: POSITIVE"/>
                </result>
                <result>
                    <reference value="Observation/us-core-lab-result-xylazine-urine-a-freeman"/>
                    <display value="XYLAZINE: POSITIVE"/>
                </result>
                <result>
                    <reference value="Observation/us-core-lab-result-etoh-gas-chromatography-vit-humor-a-freeman"/>
                    <display value="ETOH VITREOUS HUMOR: 0.133 g/dL"/>
                </result>
            </DiagnosticReport>
        </resource>
    </entry>
    <entry>
        <fullUrl value="http://hl7.org/fhir/us/mdi/Patient/us-core-patient-a-freeman"/>
        <resource>
            <Patient>
                <id value="us-core-patient-a-freeman"/>
                <text>
                    <status value="generated"/>
                </text>
                <extension url="http://hl7.org/fhir/us/core/StructureDefinition/us-core-race">
                    <extension url="detailed">
                        <valueCoding>
                            <system value="urn:oid:2.16.840.1.113883.6.238"/>
                            <code value="2029-7"/>
                            <display value="Asian Indian"/>
                        </valueCoding>
                    </extension>
                    <extension url="text">
                        <valueString value="Asian Indian"/>
                    </extension>
                </extension>
                <extension url="http://hl7.org/fhir/us/core/StructureDefinition/us-core-ethnicity">
                    <extension url="ombCategory">
                        <valueCoding>
                            <system value="urn:oid:2.16.840.1.113883.6.238"/>
                            <code value="2186-5"/>
                            <display value="Not Hispanic or Latino"/>
                        </valueCoding>
                    </extension>
                    <extension url="text">
                        <valueString value="Asian Indian"/>
                    </extension>
                </extension>
                <identifier>
                    <use value="usual"/>
                    <type>
                        <coding>
                            <system value="http://terminology.hl7.org/CodeSystem/v2-0203"/>
                            <code value="MR"/>
                            <display value="Medical Record Number"/>
                        </coding>
                        <text value="Medical Record Number"/>
                    </type>
                    <system value="http://hospital.smarthealthit.org"/>
                    <value value="MR303303303"/>
                </identifier>
                <active value="true"/>
                <name>
                    <family value="Freeman"/>
                    <given value="Alice"/>
                    <given value="J."/>
                </name>
                <gender value="female"/>
                <birthDate value="1978-03-12"/>
            </Patient>
        </resource>
    </entry>
    <entry>
        <fullUrl value="http://hl7.org/fhir/us/mdi/Organization/us-core-organization-tox-lab"/>
        <resource>
            <Organization>
                <id value="us-core-organization-tox-lab"/>
                <meta>
                    <versionId value="1"/>
                    <lastUpdated value="2021-12-21T21:10:44.154+00:00"/>
                    <source value="#QAkoip3ekF5aaBd2"/>
                    <profile value="http://hl7.org/fhir/us/core/StructureDefinition/us-core-organization"/>
                </meta>
                <text>
                    <status value="generated"/>
                </text>
                <identifier>
                    <system value="http://hl7.org.fhir/sid/us-npi"/>
                    <value value="111223333"/>
                </identifier>
                <active value="true"/>
                <type>
                    <coding>
                        <system value="http://terminology.hl7.org/CodeSystem/organization-type"/>
                        <code value="prov"/>
                        <display value="Healthcare Provider"/>
                    </coding>
                </type>
                <name value="UF Health Pathology Labs, Forensic Toxicology Laboratory"/>
                <telecom>
                    <system value="phone"/>
                    <value value="(352) 265-9900"/>
                </telecom>
                <address>
                    <line value="4800 SW 35th Drive"/>
                    <city value="Gainesville"/>
                    <state value="FL"/>
                    <postalCode value="32608"/>
                    <country value="USA"/>
                </address>
            </Organization>
        </resource>
    </entry>
    <entry>
        <fullUrl value="http://hl7.org/fhir/us/mdi/Practitioner/us-core-practitioner-b-goldberger"/>
        <resource>
            <Practitioner>
                <id value="us-core-practitioner-b-goldberger"/>
                <text>
                    <status value="generated"/>
                </text>
                <identifier>
                    <system value="http://hl7.org/fhir/sid/us-npi"/>
                    <value value="555667777"/>
                </identifier>
                <name>
                    <use value="official"/>
                    <family value="Goldberger"/>
                    <given value="Bruce"/>
                    <prefix value="Dr."/>
                </name>
            </Practitioner>
        </resource>
    </entry>
    <entry>
        <fullUrl value="http://hl7.org/fhir/us/mdi/Specimen/specimen-blood-toxicology-a-freeman"/>
        <resource>
            <Specimen>
                <id value="specimen-blood-toxicology-a-freeman"/>
                <text>
                    <status value="generated"/>
                </text>
                <accessionIdentifier>
                    <system value="http://lab.acme.org/specimens/2021"/>
                    <value value="X352356"/>
                </accessionIdentifier>
                <status value="available"/>
                <type>
                    <coding>
                        <system value="http://snomed.info/sct"/>
                        <code value="258580003"/>
                        <display value="Whole blood sample (specimen)"/>
                    </coding>
                    <text value="Whole blood sample (specimen)"/>
                </type>
                <subject>
                    <reference value="Patient/us-core-patient-a-freeman"/>
                </subject>
                <receivedTime value="2021-12-03T16:00:00Z"/>
                <collection>
                    <collectedDateTime value="2021-12-03T11:00:00Z"/>
                    <bodySite>
                        <coding>
                            <system value="http://snomed.info/sct"/>
                            <code value="83419000"/>
                            <display value="Femoral vein structure (body structure)"/>
                        </coding>
                    </bodySite>
                </collection>
                <container>
                    <description value="10mL GT tube"/>
                    <type>
                        <coding>
                            <system value="http://snomed.info/sct"/>
                            <code value="702287009"/>
                            <display value="Non-evacuated blood collection tube, potassium oxalate/sodium fluoride (physical object)"/>
                        </coding>
                        <text value="GT tube"/>
                    </type>
                    <specimenQuantity>
                        <value value="20"/>
                        <unit value="ml"/>
                    </specimenQuantity>
                </container>
            </Specimen>
        </resource>
    </entry>
    <entry>
        <fullUrl value="http://hl7.org/fhir/us/mdi/Specimen/specimen-urine-toxicology-a-freeman"/>
        <resource>
            <Specimen>
                <id value="specimen-urine-toxicology-a-freeman"/>
                <text>
                    <status value="generated"/>
                </text>
                <accessionIdentifier>
                    <system value="http://lab.acme.org/specimens/2021"/>
                    <value value="ZZZ352356"/>
                </accessionIdentifier>
                <status value="available"/>
                <type>
                    <coding>
                        <system value="http://snomed.info/sct"/>
                        <code value="122575003"/>
                        <display value="Urine specimen (specimen)"/>
                    </coding>
                    <text value="Urine specimen (specimen)"/>
                </type>
                <subject>
                    <reference value="Patient/us-core-patient-a-freeman"/>
                </subject>
                <receivedTime value="2021-12-03T16:00:00Z"/>
                <collection>
                    <collectedDateTime value="2021-12-03T11:00:00Z"/>
                </collection>
                <container>
                    <description value="10mL RT tube"/>
                    <specimenQuantity>
                        <value value="5"/>
                        <unit value="ml"/>
                    </specimenQuantity>
                </container>
            </Specimen>
        </resource>
    </entry>
    <entry>
        <fullUrl value="http://hl7.org/fhir/us/mdi/Specimen/specimen-vitreous-humor-toxicology-a-freeman"/>
        <resource>
            <Specimen>
                <id value="specimen-vitreous-humor-toxicology-a-freeman"/>
                <text>
                    <status value="generated"/>
                </text>
                <accessionIdentifier>
                    <system value="http://lab.acme.org/specimens/2021"/>
                    <value value="XXX352356"/>
                </accessionIdentifier>
                <status value="available"/>
                <type>
                    <coding>
                        <system value="http://snomed.info/sct"/>
                        <code value="258438000"/>
                        <display value="Vitreous humor sample (specimen)"/>
                    </coding>
                    <text value="Vitreous humor sample (specimen)"/>
                </type>
                <subject>
                    <reference value="Patient/us-core-patient-a-freeman"/>
                </subject>
                <receivedTime value="2021-12-03T16:00:00Z"/>
                <collection>
                    <collectedDateTime value="2021-12-03T11:00:00Z"/>
                </collection>
                <container>
                    <description value="10mL RT tube"/>
                    <specimenQuantity>
                        <value value="3"/>
                        <unit value="ml"/>
                    </specimenQuantity>
                </container>
            </Specimen>
        </resource>
    </entry>
    <entry>
        <fullUrl value="http://hl7.org/fhir/us/mdi/Specimen/specimen-bile-toxicology-a-freeman"/>
        <resource>
            <Specimen>
                <id value="specimen-bile-toxicology-a-freeman"/>
                <text>
                    <status value="generated"/>
                </text>
                <accessionIdentifier>
                    <system value="http://lab.acme.org/specimens/2021"/>
                    <value value="OO352356"/>
                </accessionIdentifier>
                <status value="available"/>
                <type>
                    <coding>
                        <system value="http://snomed.info/sct"/>
                        <code value="119341000"/>
                        <display value="Bile specimen (specimen)"/>
                    </coding>
                    <text value="Bile specimen (specimen)"/>
                </type>
                <subject>
                    <reference value="Patient/us-core-patient-a-freeman"/>
                </subject>
                <receivedTime value="2021-12-03T16:00:00Z"/>
                <container>
                    <description value="5mL GT tube"/>
                    <specimenQuantity>
                        <value value="3"/>
                        <unit value="ml"/>
                    </specimenQuantity>
                </container>
            </Specimen>
        </resource>
    </entry>
    <entry>
        <fullUrl value="http://hl7.org/fhir/us/mdi/Specimen/specimen-liver-toxicology-a-freeman"/>
        <resource>
            <Specimen>
                <id value="specimen-stomach-contents-toxicology-a-freeman"/>
                <text>
                    <status value="generated"/>
                </text>
                <accessionIdentifier>
                    <system value="http://lab.acme.org/specimens/2021"/>
                    <value value="MM352356"/>
                </accessionIdentifier>
                <status value="available"/>
                <type>
                    <coding>
                        <system value="http://snomed.info/sct"/>
                        <code value="119379005"/>
                        <display value="Specimen from stomach (specimen)"/>
                    </coding>
                    <text value="Specimen from stomach (specimen)"/>
                </type>
                <subject>
                    <reference value="Patient/us-core-patient-a-freeman"/>
                </subject>
                <receivedTime value="2021-12-03T16:00:00Z"/>
                <container>
                    <description value="5mL GT tube"/>
                    <specimenQuantity>
                        <value value="60"/>
                        <unit value="ml"/>
                    </specimenQuantity>
                </container>
            </Specimen>
        </resource>
    </entry>
    <entry>
        <fullUrl value="http://hl7.org/fhir/us/mdi/Specimen/specimen-stomach-contents-toxicology-a-freeman"/>
        <resource>
            <Specimen>
                <id value="specimen-liver-toxicology-a-freeman"/>
                <text>
                    <status value="generated"/>
                </text>
                <accessionIdentifier>
                    <system value="http://lab.acme.org/specimens/2021"/>
                    <value value="DD352356"/>
                </accessionIdentifier>
                <status value="available"/>
                <type>
                    <coding>
                        <system value="http://snomed.info/sct"/>
                        <code value="128168004"/>
                        <display value="Tissue specimen from liver (specimen)"/>
                    </coding>
                    <text value="Tissue specimen from liver (specimen)"/>
                </type>
                <subject>
                    <reference value="Patient/us-core-patient-a-freeman"/>
                </subject>
                <receivedTime value="2021-12-03T16:00:00Z"/>
                <container>
                    <description value="5mL GT tube"/>
                    <specimenQuantity>
                        <value value="5"/>
                        <unit value="ml"/>
                    </specimenQuantity>
                </container>
            </Specimen>
        </resource>
    </entry>
    <entry>
        <fullUrl value="http://hl7.org/fhir/us/mdi/Observation/us-core-lab-result-etoh-gas-chromatography-blood-a-freeman"/>
        <resource>
            <Observation>
                <id value="us-core-lab-result-etoh-gas-chromatography-blood-a-freeman"/>
                <text>
                    <status value="generated"/>
                </text>
                <status value="final"/>
                <category>
                    <coding>
                        <system value="http://terminology.hl7.org/CodeSystem/observation-category"/>
                        <code value="laboratory"/>
                        <display value="Laboratory"/>
                    </coding>
                    <text value="Laboratory"/>
                </category>
                <code>
                    <coding>
                        <system value="http://loinc.org"/>
                        <code value="56478-1"/>
                        <display value="Ethanol [Mass/volume] in Blood by Gas chromatography"/>
                    </coding>
                    <text value="Ethanol [Mass/volume] in Blood by Gas chromatography"/>
                </code>
                <subject>
                    <reference value="Patient/us-core-patient-a-freeman"/>
                    <display value="Alice J. Freeman"/>
                </subject>
                <effectiveDateTime value="2021-12-03"/>
                <valueQuantity>
                    <value value="0.145"/>
                    <unit value="g/dL"/>
                    <system value="http://unitsofmeasure.org"/>
                </valueQuantity>
                <specimen>
                    <reference value="Specimen/specimen-blood-toxicology-a-freeman"/>
                </specimen>
            </Observation>
        </resource>
    </entry>
    <entry>
        <fullUrl value="http://hl7.org/fhir/us/mdi/Observation/us-core-lab-result-4-anpp-blood-a-freeman"/>
        <resource>
            <Observation>
                <id value="us-core-lab-result-4-anpp-blood-a-freeman"/>
                <text>
                    <status value="generated"/>
                </text>
                <status value="final"/>
                <category>
                    <coding>
                        <system value="http://terminology.hl7.org/CodeSystem/observation-category"/>
                        <code value="laboratory"/>
                        <display value="Laboratory"/>
                    </coding>
                    <text value="Laboratory"/>
                </category>
                <code>
                    <coding>
                        <system value="http://loinc.org"/>
                        <code value="11072-6"/>
                        <display value="Despropionylfentanyl [Mass/volume] in Serum or Plasma"/>
                    </coding>
                    <text value="Despropionylfentanyl [Mass/volume] in Serum or Plasma"/>
                </code>
                <subject>
                    <reference value="Patient/us-core-patient-a-freeman"/>
                    <display value="Alice J. Freeman"/>
                </subject>
                <effectiveDateTime value="2021-12-03"/>
                <valueBoolean value="true"/>
                <specimen>
                    <reference value="Specimen/specimen-blood-toxicology-a-freeman"/>
                </specimen>
            </Observation>
        </resource>
    </entry>
    <entry>
        <fullUrl value="http://hl7.org/fhir/us/mdi/Observation/us-core-lab-result-acetylfentanyl-blood-a-freeman"/>
        <resource>
            <Observation>
                <id value="us-core-lab-result-acetylfentanyl-blood-a-freeman"/>
                <text>
                    <status value="generated"/>
                </text>
                <status value="final"/>
                <category>
                    <coding>
                        <system value="http://terminology.hl7.org/CodeSystem/observation-category"/>
                        <code value="laboratory"/>
                        <display value="Laboratory"/>
                    </coding>
                    <text value="Laboratory"/>
                </category>
                <code>
                    <coding>
                        <system value="http://loinc.org"/>
                        <code value="86223-5"/>
                        <display value="Acetyl norfentanyl [Mass/volume] in Serum, Plasma or Blood by Confirmatory method"/>
                    </coding>
                    <text value="Acetyl norfentanyl [Mass/volume] in Serum, Plasma or Blood by Confirmatory method"/>
                </code>
                <subject>
                    <reference value="Patient/us-core-patient-a-freeman"/>
                    <display value="Alice J. Freeman"/>
                </subject>
                <effectiveDateTime value="2021-12-03"/>
                <valueQuantity>
                    <value value="2"/>
                    <unit value="ng/mL"/>
                    <system value="http://unitsofmeasure.org"/>
                </valueQuantity>
                <specimen>
                    <reference value="Specimen/specimen-blood-toxicology-a-freeman"/>
                </specimen>
            </Observation>
        </resource>
    </entry>
    <entry>
        <fullUrl value="http://hl7.org/fhir/us/mdi/Observation/us-core-lab-result-fentanyl-blood-a-freeman"/>
        <resource>
            <Observation>
                <id value="us-core-lab-result-fentanyl-blood-a-freeman"/>
                <text>
                    <status value="generated"/>
                </text>
                <status value="final"/>
                <category>
                    <coding>
                        <system value="http://terminology.hl7.org/CodeSystem/observation-category"/>
                        <code value="laboratory"/>
                        <display value="Laboratory"/>
                    </coding>
                    <text value="Laboratory"/>
                </category>
                <code>
                    <coding>
                        <system value="http://loinc.org"/>
                        <code value="73938-3"/>
                        <display value="fentaNYL [Mass/volume] in Blood by Confirmatory method"/>
                    </coding>
                    <text value="fentaNYL [Mass/volume] in Blood by Confirmatory method"/>
                </code>
                <subject>
                    <reference value="Patient/us-core-patient-a-freeman"/>
                    <display value="Alice J. Freeman"/>
                </subject>
                <effectiveDateTime value="2021-12-03"/>
                <valueQuantity>
                    <value value="23"/>
                    <unit value="ng/mL"/>
                    <system value="http://unitsofmeasure.org"/>
                </valueQuantity>
                <specimen>
                    <reference value="Specimen/specimen-blood-toxicology-a-freeman"/>
                </specimen>
            </Observation>
        </resource>
    </entry>
    <entry>
        <fullUrl value="http://hl7.org/fhir/us/mdi/Observation/us-core-lab-result-etoh-gas-chromatography-urine-a-freeman"/>
        <resource>
            <Observation>
                <id value="us-core-lab-result-etoh-gas-chromatography-urine-a-freeman"/>
                <text>
                    <status value="generated"/>
                </text>
                <status value="final"/>
                <category>
                    <coding>
                        <system value="http://terminology.hl7.org/CodeSystem/observation-category"/>
                        <code value="laboratory"/>
                        <display value="Laboratory"/>
                    </coding>
                    <text value="Laboratory"/>
                </category>
                <code>
                    <coding>
                        <system value="http://loinc.org"/>
                        <code value="46983-3"/>
                        <display value="Ethanol [Mass/volume] in Urine by Confirmatory method"/>
                    </coding>
                    <text value="Ethanol [Mass/volume] in Urine by Confirmatory method"/>
                </code>
                <subject>
                    <reference value="Patient/us-core-patient-a-freeman"/>
                    <display value="Alice J. Freeman"/>
                </subject>
                <effectiveDateTime value="2021-12-03"/>
                <valueQuantity>
                    <value value="0.16"/>
                    <unit value="g/dL"/>
                    <system value="http://unitsofmeasure.org"/>
                </valueQuantity>
                <specimen>
                    <reference value="Specimen/specimen-urine-toxicology-a-freeman"/>
                </specimen>
            </Observation>
        </resource>
    </entry>
    <entry>
        <fullUrl value="http://hl7.org/fhir/us/mdi/Observation/us-core-lab-result-4-anpp-urine-a-freeman"/>
        <resource>
            <Observation>
                <id value="us-core-lab-result-4-anpp-urine-a-freeman"/>
                <text>
                    <status value="generated"/>
                </text>
                <status value="final"/>
                <category>
                    <coding>
                        <system value="http://terminology.hl7.org/CodeSystem/observation-category"/>
                        <code value="laboratory"/>
                        <display value="Laboratory"/>
                    </coding>
                    <text value="Laboratory"/>
                </category>
                <code>
                    <coding>
                        <system value="http://loinc.org"/>
                        <code value="11072-6"/>
                        <display value="Despropionylfentanyl [Mass/volume] in Serum or Plasma"/>
                    </coding>
                    <text value="Despropionylfentanyl [Mass/volume] in Serum or Plasma"/>
                </code>
                <subject>
                    <reference value="Patient/us-core-patient-a-freeman"/>
                    <display value="Alice J. Freeman"/>
                </subject>
                <effectiveDateTime value="2021-12-03"/>
                <valueBoolean value="true"/>
                <specimen>
                    <reference value="Specimen/specimen-urine-toxicology-a-freeman"/>
                </specimen>
            </Observation>
        </resource>
    </entry>
    <entry>
        <fullUrl value="http://hl7.org/fhir/us/mdi/Observation/us-core-lab-result-acetylfentanyl-urine-a-freeman"/>
        <resource>
            <Observation>
                <id value="us-core-lab-result-acetylfentanyl-urine-a-freeman"/>
                <text>
                    <status value="generated"/>
                </text>
                <status value="final"/>
                <category>
                    <coding>
                        <system value="http://terminology.hl7.org/CodeSystem/observation-category"/>
                        <code value="laboratory"/>
                        <display value="Laboratory"/>
                    </coding>
                    <text value="Laboratory"/>
                </category>
                <code>
                    <coding>
                        <system value="http://loinc.org"/>
                        <code value="74810-3"/>
                        <display value="Acetyl fentanyl [Presence] in Urine by Confirmatory method"/>
                    </coding>
                    <text value="Acetyl fentanyl [Presence] in Urine by Confirmatory method"/>
                </code>
                <subject>
                    <reference value="Patient/us-core-patient-a-freeman"/>
                    <display value="Alice J. Freeman"/>
                </subject>
                <effectiveDateTime value="2021-12-03"/>
                <valueBoolean value="true"/>
                <specimen>
                    <reference value="Specimen/specimen-urine-toxicology-a-freeman"/>
                </specimen>
            </Observation>
        </resource>
    </entry>
    <entry>
        <fullUrl value="http://hl7.org/fhir/us/mdi/Observation/us-core-lab-result-fentanyl-urine-a-freeman"/>
        <resource>
            <Observation>
                <id value="us-core-lab-result-fentanyl-urine-a-freeman"/>
                <text>
                    <status value="generated"/>
                </text>
                <status value="final"/>
                <category>
                    <coding>
                        <system value="http://terminology.hl7.org/CodeSystem/observation-category"/>
                        <code value="laboratory"/>
                        <display value="Laboratory"/>
                    </coding>
                    <text value="Laboratory"/>
                </category>
                <code>
                    <coding>
                        <system value="http://loinc.org"/>
                        <code value="11235-9"/>
                        <display value="fentaNYL [Presence] in Urine"/>
                    </coding>
                    <text value="fentaNYL [Presence] in Urine"/>
                </code>
                <subject>
                    <reference value="Patient/us-core-patient-a-freeman"/>
                    <display value="Alice J. Freeman"/>
                </subject>
                <effectiveDateTime value="2021-12-03"/>
                <valueBoolean value="true"/>
                <specimen>
                    <reference value="Specimen/specimen-urine-toxicology-a-freeman"/>
                </specimen>
            </Observation>
        </resource>
    </entry>
    <entry>
        <fullUrl value="http://hl7.org/fhir/us/mdi/Observation/us-core-lab-result-norfentanyl-urine-a-freeman"/>
        <resource>
            <Observation>
                <id value="us-core-lab-result-norfentanyl-urine-a-freeman"/>
                <text>
                    <status value="generated"/>
                </text>
                <status value="final"/>
                <category>
                    <coding>
                        <system value="http://terminology.hl7.org/CodeSystem/observation-category"/>
                        <code value="laboratory"/>
                        <display value="Laboratory"/>
                    </coding>
                    <text value="Laboratory"/>
                </category>
                <code>
                    <coding>
                        <system value="http://loinc.org"/>
                        <code value="43199-9"/>
                        <display value="Norfentanyl [Presence] in Urine"/>
                    </coding>
                    <text value="Norfentanyl [Presence] in Urine"/>
                </code>
                <subject>
                    <reference value="Patient/us-core-patient-a-freeman"/>
                    <display value="Alice J. Freeman"/>
                </subject>
                <effectiveDateTime value="2021-12-03"/>
                <valueBoolean value="true"/>
                <specimen>
                    <reference value="Specimen/specimen-urine-toxicology-a-freeman"/>
                </specimen>
            </Observation>
        </resource>
    </entry>
    <entry>
        <fullUrl value="http://hl7.org/fhir/us/mdi/Observation/us-core-lab-result-xylazine-urine-a-freeman"/>
        <resource>
            <Observation>
                <id value="us-core-lab-result-xylazine-urine-a-freeman"/>
                <text>
                    <status value="generated"/>
                </text>
                <status value="final"/>
                <category>
                    <coding>
                        <system value="http://terminology.hl7.org/CodeSystem/observation-category"/>
                        <code value="laboratory"/>
                        <display value="Laboratory"/>
                    </coding>
                    <text value="Laboratory"/>
                </category>
                <code>
                    <coding>
                        <system value="http://loinc.org"/>
                        <code value="12327-3"/>
                        <display value="Ketamine [Presence] in Urine"/>
                    </coding>
                    <text value="Ketamine [Presence] in Urine"/>
                </code>
                <subject>
                    <reference value="Patient/us-core-patient-a-freeman"/>
                    <display value="Alice J. Freeman"/>
                </subject>
                <effectiveDateTime value="2021-12-03"/>
                <valueBoolean value="true"/>
                <specimen>
                    <reference value="Specimen/specimen-urine-toxicology-a-freeman"/>
                </specimen>
            </Observation>
        </resource>
    </entry>
    <entry>
        <fullUrl value="http://hl7.org/fhir/us/mdi/Observation/us-core-lab-result-etoh-gas-chromatography-vit-humor-a-freeman"/>
        <resource>
            <Observation>
                <id value="us-core-lab-result-etoh-gas-chromatography-vit-humor-a-freeman"/>
                <text>
                    <status value="generated"/>
                </text>
                <status value="final"/>
                <category>
                    <coding>
                        <system value="http://terminology.hl7.org/CodeSystem/observation-category"/>
                        <code value="laboratory"/>
                        <display value="Laboratory"/>
                    </coding>
                    <text value="Laboratory"/>
                </category>
                <code>
                    <coding>
                        <system value="http://loinc.org"/>
                        <code value="46983-3"/>
                        <display value="Ethanol [Mass/volume] in Urine by Confirmatory method"/>
                    </coding>
                    <text value="Ethanol [Mass/volume] in Urine by Confirmatory method"/>
                </code>
                <subject>
                    <reference value="Patient/us-core-patient-a-freeman"/>
                    <display value="Alice J. Freeman"/>
                </subject>
                <effectiveDateTime value="2021-12-03"/>
                <valueQuantity>
                    <value value="0.133"/>
                    <unit value="g/dL"/>
                    <system value="http://unitsofmeasure.org"/>
                </valueQuantity>
                <specimen>
                    <reference value="Specimen/specimen-vitreous-humor-toxicology-a-freeman"/>
                </specimen>
            </Observation>
        </resource>
    </entry>
</Bundle>