<?xml version="1.0" encoding="UTF-8"?>
<Bundle
    xmlns="http://hl7.org/fhir">
    <id value="bundle-mdi-to-edrs-a-freeman"/>
    <meta>
        <versionId value="16"/>
        <lastUpdated value="2022-08-15T22:10:34.999+00:00"/>
        <source value="#DyJ8WYoVUGw7xAcK"/>
        <profile value="http://hl7.org/fhir/us/mdi/StructureDefinition/Bundle-document-mdi-to-edrs"/>
    </meta>
    <identifier>
        <system value="urn:ietf:rfc:3986"/>
        <value value="urn:uuid:933dde44f7664b03a20b6324f23986c0"/>
    </identifier>
    <type value="document"/>
    <timestamp value="2022-01-04T08:51:14.637+00:00"/>
    <entry>
        <fullUrl value="https://www.state-edrs.org/Composition/composition-mdi-to-edrs-a-freeman"/>
        <resource>
            <Composition>
                <id value="composition-mdi-to-edrs-a-freeman"/>
                <meta>
                    <versionId value="11"/>
                    <lastUpdated value="2022-03-02T20:42:32.260+00:00"/>
                    <source value="#DtcvjXyynMA9Hyyo"/>
                    <profile value="http://hl7.org/fhir/us/mdi/StructureDefinition/Composition-mdi-to-edrs"/>
                </meta>
                <extension url="http://hl7.org/fhir/us/mdi/StructureDefinition/Extension-tracking-number">
                    <valueIdentifier>
                        <type>
                            <coding>
                                <system value="http://terminology.hl7.org/CodeSystem/v2-0203"/>
                                <code value="BCT"/>
                            </coding>
                        </type>
                        <value value="ME21-113"/>
                    </valueIdentifier>
                </extension>
                <identifier>
                    <value value="a03eab8c-11e8-4d0c-ad2a-b385395e27de"/>
                </identifier>
                <status value="final"/>
                <type>
                    <coding>
                        <system value="http://loinc.org"/>
                        <code value="86807-5"/>
                        <display value="Death administrative information Document"/>
                    </coding>
                </type>
                <subject>
                    <reference value="Patient/us-core-patient-a-freeman"/>
                </subject>
                <date value="2022-02-20"/>
                <author>
                    <reference value="Practitioner/us-core-practitioner-b-goldberger"/>
                </author>
                <title value="MDI to EDRS Composition"/>
                <section>
                    <title value="Demographic Information Section"/>
                    <code>
                        <coding>
                            <system value="http://hl7.org/fhir/us/mdi/CodeSystem/CodeSystem-mdi-codes"/>
                            <code value="demographics"/>
                        </coding>
                    </code>
                    <entry>
                        <reference value="Observation/observation-odh-usual-work-a-freeman"/>
                    </entry>
                </section>
                <section>
                    <title value="Circumstances Section"/>
                    <code>
                        <coding>
                            <system value="http://hl7.org/fhir/us/mdi/CodeSystem/CodeSystem-mdi-codes"/>
                            <code value="circumstances"/>
                        </coding>
                    </code>
                    <entry>
                        <reference value="Location/us-core-location-atlanta-ga-death-location-a-freeman"/>
                    </entry>
                    <entry>
                        <reference value="Observation/observation-death-injury-at-work-a-freeman"/>
                    </entry>
                    <entry>
                        <reference value="Observation/observation-tobacco-use-a-freeman"/>
                    </entry>
                    <entry>
                        <reference value="Observation/observation-decedent-pregnancy-a-freeman"/>
                    </entry>
                </section>
                <section>
                    <title value="Jurisdiction Section"/>
                    <code>
                        <coding>
                            <system value="http://hl7.org/fhir/us/mdi/CodeSystem/CodeSystem-mdi-codes"/>
                            <code value="jurisdiction"/>
                        </coding>
                    </code>
                    <entry>
                        <reference value="Observation/observation-death-date-a-freeman"/>
                    </entry>
                </section>
                <section>
                    <title value="Cause and Manner of Death Section"/>
                    <code>
                        <coding>
                            <system value="http://hl7.org/fhir/us/mdi/CodeSystem/CodeSystem-mdi-codes"/>
                            <code value="cause-manner"/>
                        </coding>
                    </code>
                    <entry>
                        <reference value="Observation/Observation-contributing-cause-of-death-part2-a-freeman"/>
                    </entry>
                    <entry>
                        <reference value="Observation/observation-manner-of-death-a-freeman-accidental"/>
                    </entry>
                    <entry>
                        <reference value="Observation/observation-how-death-injury-occurred-a-freeman-med-ingest"/>
                    </entry>
                </section>
                <section>
                    <title value="Medical History Section"/>
                    <code>
                        <coding>
                            <system value="http://hl7.org/fhir/us/mdi/CodeSystem/CodeSystem-mdi-codes"/>
                            <code value="medical-history"/>
                        </coding>
                    </code>
                    <emptyReason>
                        <coding>
                            <system value="http://terminology.hl7.org/CodeSystem/list-empty-reason"/>
                            <code value="unavailable"/>
                            <display value="Unavailable"/>
                        </coding>
                        <text value="Decedent's medical history not available"/>
                    </emptyReason>
                </section>
            </Composition>
        </resource>
    </entry>
    <entry>
        <fullUrl value="https://www.state-edrs.org/Observation/observation-how-death-injury-occurred-a-freeman-med-ingest"/>
        <resource>
            <Observation>
                <id value="observation-how-death-injury-occurred-a-freeman-med-ingest"/>
                <meta>
                    <versionId value="1"/>
                    <lastUpdated value="2022-03-01T17:19:53.056+00:00"/>
                    <source value="#Z98BYGvx2FdhqI8b"/>
                    <profile value="http://hl7.org/fhir/us/mdi/StructureDefinition/Observation-how-death-injury-occurred"/>
                </meta>
                <text>
                    <status value="generated"/>
                </text>
                <status value="final"/>
                <code>
                    <coding>
                        <system value="http://loinc.org"/>
                        <code value="11374-6"/>
                        <display value="Injury incident description Narrative"/>
                    </coding>
                </code>
                <subject>
                    <reference value="Patient/us-core-patient-a-freeman"/>
                </subject>
                <effectiveDateTime value="2018-02-19T16:48:06-05:00"/>
                <performer>
                    <reference value="Practitioner/us-core-practitioner-s-jones"/>
                </performer>
                <valueString value="Ingested counterfeit medication"/>
            </Observation>
        </resource>
    </entry>
    <entry>
        <fullUrl value="https://www.state-edrs.org/Observation/observation-death-injury-at-work-a-freeman"/>
        <resource>
            <Observation>
                <id value="observation-death-injury-at-work-a-freeman"/>
                <meta>
                    <versionId value="1"/>
                    <lastUpdated value="2022-03-01T17:19:53.055+00:00"/>
                    <source value="#jVKCYomVfJCRczEG"/>
                    <profile value="http://hl7.org/fhir/us/mdi/StructureDefinition/Observation-death-injury-at-work"/>
                </meta>
                <text>
                    <status value="generated"/>
                </text>
                <status value="final"/>
                <code>
                    <coding>
                        <system value="http://loinc.org"/>
                        <code value="69444-8"/>
                        <display value="Did death result from injury at work"/>
                    </coding>
                </code>
                <subject>
                    <reference value="Patient/us-core-patient-a-freeman"/>
                </subject>
                <valueCodeableConcept>
                    <coding>
                        <system value="http://terminology.hl7.org/CodeSystem/v2-0136"/>
                        <code value="N"/>
                        <display value="No"/>
                    </coding>
                </valueCodeableConcept>
            </Observation>
        </resource>
    </entry>
    <entry>
        <fullUrl value="https://www.state-edrs.org/Observation/observation-manner-of-death-a-freeman-accidental"/>
        <resource>
            <Observation>
                <id value="observation-manner-of-death-a-freeman-accidental"/>
                <meta>
                    <versionId value="1"/>
                    <lastUpdated value="2022-03-01T17:19:53.053+00:00"/>
                    <source value="#zVxxUgTQkw6sVJZZ"/>
                    <profile value="http://hl7.org/fhir/us/mdi/StructureDefinition/Observation-manner-of-death"/>
                </meta>
                <text>
                    <status value="generated"/>
                </text>
                <status value="final"/>
                <code>
                    <coding>
                        <system value="http://loinc.org"/>
                        <code value="69449-7"/>
                        <display value="Manner of death"/>
                    </coding>
                </code>
                <subject>
                    <reference value="Patient/us-core-patient-a-freeman"/>
                </subject>
                <performer>
                    <reference value="Practitioner/us-core-practitioner-s-jones"/>
                </performer>
                <valueCodeableConcept>
                    <coding>
                        <system value="http://snomed.info/sct"/>
                        <code value="7878000"/>
                        <display value="Accidental death"/>
                    </coding>
                </valueCodeableConcept>
            </Observation>
        </resource>
    </entry>
    <entry>
        <fullUrl value="https://www.state-edrs.org/Observation/Observation-contributing-cause-of-death-part2-a-freeman"/>
        <resource>
            <Observation>
                <id value="Observation-contributing-cause-of-death-part2-a-freeman"/>
                <meta>
                    <versionId value="1"/>
                    <lastUpdated value="2022-03-01T17:19:53.055+00:00"/>
                    <source value="#S3wDMdBKaPzYcNyu"/>
                    <profile value="http://hl7.org/fhir/us/mdi/StructureDefinition/Observation-contributing-cause-of-death-part2"/>
                </meta>
                <text>
                    <status value="generated"/>
                </text>
                <status value="final"/>
                <code>
                    <coding>
                        <system value="http://loinc.org"/>
                        <code value="69441-4"/>
                        <display value="Other significant causes or conditions of death"/>
                    </coding>
                </code>
                <subject>
                    <reference value="Patient/us-core-patient-a-freeman"/>
                </subject>
                <performer>
                    <reference value="Practitioner/us-core-practitioner-s-jones"/>
                </performer>
                <valueCodeableConcept>
                    <text value="Hypertensive heart disease"/>
                </valueCodeableConcept>
            </Observation>
        </resource>
    </entry>
    <entry>
        <fullUrl value="https://www.state-edrs.org/Practitioner/us-core-practitioner-b-goldberger"/>
        <resource>
            <Practitioner>
                <id value="us-core-practitioner-b-goldberger"/>
                <text>
                    <status value="generated"/>
                </text>
                <identifier>
                    <system value="http://hl7.org/fhir/sid/us-npi"/>
                    <value value="555667777"/>
                </identifier>
                <name>
                    <use value="official"/>
                    <family value="Goldberger"/>
                    <given value="Bruce"/>
                    <prefix value="Dr."/>
                </name>
            </Practitioner>
        </resource>
    </entry>
    <entry>
        <fullUrl value="https://www.state-edrs.org/Location/us-core-location-atlanta-ga-death-location-a-freeman"/>
        <resource>
            <Location>
                <id value="us-core-location-atlanta-ga-death-location-a-freeman"/>
                <meta>
                    <versionId value="1"/>
                    <lastUpdated value="2022-03-01T18:09:05.383+00:00"/>
                    <source value="#gsNPN2nD0eTwQUjk"/>
                    <profile value="http://hl7.org/fhir/us/core/StructureDefinition/us-core-location"/>
                </meta>
                <text>
                    <status value="generated"/>
                </text>
                <identifier>
                    <system value="http://www.acme.org/location"/>
                    <value value="29"/>
                </identifier>
                <status value="active"/>
                <name value="Atlanta GA Death Location - Freeman"/>
                <address>
                    <use value="home"/>
                    <type value="physical"/>
                    <line value="400 Windstream Street"/>
                    <city value="Atlanta"/>
                    <district value="Fulton County"/>
                    <state value="GA"/>
                    <country value="USA"/>
                </address>
            </Location>
        </resource>
    </entry>
    <entry>
        <fullUrl value="https://www.state-edrs.org/Patient/us-core-patient-a-freeman"/>
        <resource>
            <Patient>
                <id value="us-core-patient-a-freeman"/>
                <meta>
                    <versionId value="5"/>
                    <lastUpdated value="2022-03-01T16:06:20.614+00:00"/>
                    <source value="#3yPjJh3fl3EYCoHD"/>
                    <profile value="http://hl7.org/fhir/us/core/StructureDefinition/us-core-patient"/>
                </meta>
                <text>
                    <status value="generated"/>
                </text>
                <extension url="http://hl7.org/fhir/us/core/StructureDefinition/us-core-race">
                    <extension url="detailed">
                        <valueCoding>
                            <system value="urn:oid:2.16.840.1.113883.6.238"/>
                            <code value="2029-7"/>
                            <display value="Asian Indian"/>
                        </valueCoding>
                    </extension>
                    <extension url="text">
                        <valueString value="Asian Indian"/>
                    </extension>
                </extension>
                <extension url="http://hl7.org/fhir/us/core/StructureDefinition/us-core-ethnicity">
                    <extension url="ombCategory">
                        <valueCoding>
                            <system value="urn:oid:2.16.840.1.113883.6.238"/>
                            <code value="2186-5"/>
                            <display value="Not Hispanic or Latino"/>
                        </valueCoding>
                    </extension>
                    <extension url="text">
                        <valueString value="Not Hispanic or Latino"/>
                    </extension>
                </extension>
                <identifier>
                    <use value="usual"/>
                    <type>
                        <coding>
                            <system value="http://terminology.hl7.org/CodeSystem/v2-0203"/>
                            <code value="SS"/>
                            <display value="Social Security number"/>
                        </coding>
                        <text value="Social Security number"/>
                    </type>
                    <system value="http://hospital.smarthealthit.org"/>
                    <value value="987054321"/>
                </identifier>
                <active value="true"/>
                <name>
                    <family value="Freeman"/>
                    <given value="Alice"/>
                    <given value="J."/>
                </name>
                <gender value="female"/>
                <birthDate value="1978-03-12"/>
                <address>
                    <use value="home"/>
                    <line value="112 Miramar Ct"/>
                    <city value="Danville"/>
                    <state value="Nova Scotia"/>
                    <country value="CA"/>
                </address>
            </Patient>
        </resource>
    </entry>
    <entry>
        <fullUrl value="https://www.state-edrs.org/Observation/observation-odh-usual-work-a-freeman"/>
        <resource>
            <Observation>
                <id value="observation-odh-usual-work-a-freeman"/>
                <meta>
                    <versionId value="3"/>
                    <lastUpdated value="2022-03-01T23:28:12.704+00:00"/>
                    <source value="#SjvIv0MqipjpaPO1"/>
                    <profile value="http://hl7.org/fhir/us/odh/StructureDefinition/odh-UsualWork"/>
                </meta>
                <text>
                    <status value="generated"/>
                </text>
                <status value="final"/>
                <code>
                    <coding>
                        <system value="http://loinc.org"/>
                        <code value="21843-8"/>
                        <display value="History of Usual occupation"/>
                    </coding>
                </code>
                <subject>
                    <reference value="Patient/us-core-patient-a-freeman"/>
                </subject>
                <effectivePeriod>
                    <start value="1998-06-01"/>
                    <end value="2022-01-07"/>
                </effectivePeriod>
                <valueCodeableConcept>
                    <coding>
                        <system value="urn:oid:2.16.840.1.114222.4.5.314"/>
                        <code value="4030"/>
                        <display value="Food preparation workers"/>
                    </coding>
                </valueCodeableConcept>
                <component>
                    <code>
                        <coding>
                            <system value="http://loinc.org"/>
                            <code value="21844-6"/>
                            <display value="History of Usual industry"/>
                        </coding>
                    </code>
                    <valueCodeableConcept>
                        <coding>
                            <system value="http://terminology.hl7.org/CodeSystem/PHIndustryCDCCensus2010"/>
                            <code value="8680"/>
                            <display value="Restaurants and other food services"/>
                        </coding>
                    </valueCodeableConcept>
                </component>
                <component>
                    <code>
                        <coding>
                            <system value="http://loinc.org"/>
                            <code value="74163-7"/>
                            <display value="Usual occupation duration"/>
                        </coding>
                    </code>
                </component>
            </Observation>
        </resource>
    </entry>
    <entry>
        <fullUrl value="https://www.state-edrs.org/Observation/observation-tobacco-use-a-freeman"/>
        <resource>
            <Observation>
                <id value="observation-tobacco-use-a-freeman"/>
                <meta>
                    <versionId value="1"/>
                    <lastUpdated value="2022-03-01T17:19:53.053+00:00"/>
                    <source value="#X7OSBNoW2MPKH7eN"/>
                    <profile value="http://hl7.org/fhir/us/mdi/StructureDefinition/Observation-tobacco-use-contributed-to-death"/>
                </meta>
                <text>
                    <status value="generated"/>
                </text>
                <status value="final"/>
                <code>
                    <coding>
                        <system value="http://loinc.org"/>
                        <code value="69443-0"/>
                        <display value="Did tobacco use contribute to death"/>
                    </coding>
                </code>
                <subject>
                    <reference value="Patient/us-core-patient-a-freeman"/>
                </subject>
                <valueCodeableConcept>
                    <coding>
                        <system value="http://snomed.info/sct"/>
                        <code value="373067005"/>
                        <display value="No"/>
                    </coding>
                </valueCodeableConcept>
            </Observation>
        </resource>
    </entry>
    <entry>
        <fullUrl value="https://www.state-edrs.org/Observation/observation-death-date-a-freeman"/>
        <resource>
            <Observation>
                <id value="observation-death-date-a-freeman"/>
                <meta>
                    <versionId value="1"/>
                    <lastUpdated value="2022-03-01T17:19:53.058+00:00"/>
                    <source value="#8xICjnTh18z7ywoE"/>
                    <profile value="http://hl7.org/fhir/us/mdi/StructureDefinition/Observation-death-date"/>
                </meta>
                <text>
                    <status value="extensions"/>
                </text>
                <extension url="http://hl7.org/fhir/us/mdi/StructureDefinition/Extension-observation-location">
                    <valueReference>
                        <reference value="Location/us-core-location-atlanta-ga-death-location-a-freeman"/>
                    </valueReference>
                </extension>
                <status value="final"/>
                <code>
                    <coding>
                        <system value="http://loinc.org"/>
                        <code value="81956-5"/>
                        <display value="Date+time of death"/>
                    </coding>
                </code>
                <subject>
                    <reference value="Patient/us-core-patient-a-freeman"/>
                </subject>
                <effectiveDateTime value="2022-01-08T15:30:00-05:00"/>
                <performer>
                    <reference value="Practitioner/us-core-practitioner-s-jones"/>
                </performer>
                <valueDateTime value="2022-01-08T14:04:00-05:00"/>
                <method>
                    <coding>
                        <system value="http://hl7.org/fhir/us/mdi/CodeSystem/CodeSystem-mdi-codes"/>
                        <code value="exact"/>
                        <display value="Exact"/>
                    </coding>
                </method>
                <component>
                    <code>
                        <coding>
                            <system value="http://loinc.org"/>
                            <code value="80616-6"/>
                            <display value="Date and time pronounced dead [US Standard Certificate of Death]"/>
                        </coding>
                    </code>
                    <valueDateTime value="2022-01-08T15:30:00-05:00"/>
                </component>
            </Observation>
        </resource>
    </entry>
    <entry>
        <fullUrl value="https://www.state-edrs.org/Practitioner/us-core-practitioner-s-jones"/>
        <resource>
            <Practitioner>
                <id value="us-core-practitioner-s-jones"/>
                <text>
                    <status value="generated"/>
                </text>
                <identifier>
                    <system value="http://hl7.org/fhir/sid/us-npi"/>
                    <value value="3333445555"/>
                </identifier>
                <name>
                    <use value="official"/>
                    <family value="Jones"/>
                    <given value="Sam"/>
                    <prefix value="Dr."/>
                </name>
            </Practitioner>
        </resource>
    </entry>
    <entry>
        <fullUrl value="https://www.state-edrs.org/Practitioner/us-core-practitioner-j-jones"/>
        <resource>
            <Practitioner>
                <id value="us-core-practitioner-j-jones"/>
                <text>
                    <status value="generated"/>
                </text>
                <identifier>
                    <system value="http://hl7.org/fhir/sid/us-npi"/>
                    <value value="1122334455"/>
                </identifier>
                <name>
                    <use value="official"/>
                    <family value="Jones"/>
                    <given value="Jane"/>
                    <prefix value="Dr."/>
                </name>
            </Practitioner>
        </resource>
    </entry>
    <entry>
        <fullUrl value="https://www.state-edrs.org/Observation/Observation-cause-of-death-part1-a-freeman"/>
        <resource>
            <Observation>
                <id value="Observation-cause-of-death-part1-a-freeman"/>
                <meta>
                    <versionId value="1"/>
                    <lastUpdated value="2022-03-01T17:19:53.056+00:00"/>
                    <source value="#VHUEowzyVUs2LUH0"/>
                    <profile value="http://hl7.org/fhir/us/mdi/StructureDefinition/Observation-cause-of-death-part1"/>
                </meta>
                <text>
                    <status value="generated"/>
                </text>
                <status value="final"/>
                <code>
                    <coding>
                        <system value="http://loinc.org"/>
                        <code value="69453-9"/>
                        <display value="Cause of death [US Standard Certificate of Death]"/>
                    </coding>
                </code>
                <subject>
                    <reference value="Patient/us-core-patient-a-freeman"/>
                </subject>
                <performer>
                    <reference value="Practitioner/us-core-practitioner-s-jones"/>
                </performer>
                <valueCodeableConcept>
                    <text value="Fentanyl toxicity"/>
                </valueCodeableConcept>
                <component>
                    <code>
                        <coding>
                            <system value="http://loinc.org"/>
                            <code value="69440-6"/>
                            <display value="Disease onset to death interval"/>
                        </coding>
                    </code>
                    <valueString value="minutes to hours"/>
                </component>
            </Observation>
        </resource>
    </entry>
    <entry>
        <fullUrl value="https://www.state-edrs.org/Observation/observation-decedent-pregnancy-a-freeman"/>
        <resource>
            <Observation>
                <id value="observation-decedent-pregnancy-a-freeman"/>
                <meta>
                    <versionId value="1"/>
                    <lastUpdated value="2022-03-01T17:19:53.055+00:00"/>
                    <source value="#bA5w4W9yn2EYc2DO"/>
                    <profile value="http://hl7.org/fhir/us/mdi/StructureDefinition/Observation-decedent-pregnancy"/>
                </meta>
                <text>
                    <status value="generated"/>
                </text>
                <status value="final"/>
                <code>
                    <coding>
                        <system value="http://loinc.org"/>
                        <code value="69442-2"/>
                        <display value="Timing of recent pregnancy in relation to death"/>
                    </coding>
                </code>
                <subject>
                    <reference value="Patient/us-core-patient-a-freeman"/>
                </subject>
                <valueCodeableConcept>
                    <coding>
                        <system value="http://terminology.hl7.org/CodeSystem/v3-NullFlavor"/>
                        <code value="NA"/>
                        <display value="not applicable"/>
                    </coding>
                </valueCodeableConcept>
            </Observation>
        </resource>
    </entry>
</Bundle>